position,sentence_id,word,sentence,trials.thisRepN,trials.thisTrialN,trials.thisN,trials.thisIndex,key_resp_2.keys,key_resp_2.rt,age,frameRate,sex,expName,date,ID,
final,55,muck,The word is 'muck',0,0,0,54,space,2.60492992401,25,60.0983225559,m,glottal_pilot,2018_Mar_12_1656,m03,
final,43,kit,The word is 'kit',0,1,1,42,space,1.88607001305,25,60.0983225559,m,glottal_pilot,2018_Mar_12_1656,m03,
medial,24,tuck,Say 'tuck' again,0,2,2,23,space,1.82043004036,25,60.0983225559,m,glottal_pilot,2018_Mar_12_1656,m03,
medial,2,fat,Say 'fat' again,0,3,3,1,space,1.48446393013,25,60.0983225559,m,glottal_pilot,2018_Mar_12_1656,m03,
medial,12,fit,Say 'fit' again,0,4,4,11,space,1.46893501282,25,60.0983225559,m,glottal_pilot,2018_Mar_12_1656,m03,
final,62,walk,The word is 'walk',0,5,5,61,space,1.33475995064,25,60.0983225559,m,glottal_pilot,2018_Mar_12_1656,m03,
final,58,short,The word is 'short',0,6,6,57,space,1.45295286179,25,60.0983225559,m,glottal_pilot,2018_Mar_12_1656,m03,
final,49,cut,The word is 'cut',0,7,7,48,space,1.43558096886,25,60.0983225559,m,glottal_pilot,2018_Mar_12_1656,m03,
medial,6,pack,Say 'pack' again,0,8,8,5,space,1.13531589508,25,60.0983225559,m,glottal_pilot,2018_Mar_12_1656,m03,
medial,10,lit,Say 'lit' again,0,9,9,9,space,1.65339016914,25,60.0983225559,m,glottal_pilot,2018_Mar_12_1656,m03,
final,35,chat,The word is 'chat',0,10,10,34,space,1.65352606773,25,60.0983225559,m,glottal_pilot,2018_Mar_12_1656,m03,
final,42,lit,The word is 'lit',0,11,11,41,space,1.26983785629,25,60.0983225559,m,glottal_pilot,2018_Mar_12_1656,m03,
final,44,fit,The word is 'fit',0,12,12,43,space,1.60285210609,25,60.0983225559,m,glottal_pilot,2018_Mar_12_1656,m03,
medial,8,tack,Say 'tack' again,0,13,13,7,space,1.28645992279,25,60.0983225559,m,glottal_pilot,2018_Mar_12_1656,m03,
medial,18,shut,Say 'shut' again,0,14,14,17,space,1.66709184647,25,60.0983225559,m,glottal_pilot,2018_Mar_12_1656,m03,
final,50,shut,The word is 'shut',0,15,15,49,space,1.63579487801,25,60.0983225559,m,glottal_pilot,2018_Mar_12_1656,m03,
final,52,gut,The word is 'gut',0,16,16,51,space,1.33577394485,25,60.0983225559,m,glottal_pilot,2018_Mar_12_1656,m03,
medial,28,wrought,Say 'wrought' again,0,17,17,27,space,1.56988596916,25,60.0983225559,m,glottal_pilot,2018_Mar_12_1656,m03,
medial,19,nut,Say 'nut' again,0,18,18,18,space,1.45219016075,25,60.0983225559,m,glottal_pilot,2018_Mar_12_1656,m03,
medial,27,port,Say 'port' again,0,19,19,26,space,1.42042279243,25,60.0983225559,m,glottal_pilot,2018_Mar_12_1656,m03,
medial,14,mick,Say 'mick' again,0,20,20,13,space,1.57055997849,25,60.0983225559,m,glottal_pilot,2018_Mar_12_1656,m03,
medial,26,short,Say 'short' again,0,21,21,25,space,1.75229787827,25,60.0983225559,m,glottal_pilot,2018_Mar_12_1656,m03,
final,36,rat,The word is 'rat',0,22,22,35,space,1.66932892799,25,60.0983225559,m,glottal_pilot,2018_Mar_12_1656,m03,
final,33,cat,The word is 'cat',0,23,23,32,space,1.41955494881,25,60.0983225559,m,glottal_pilot,2018_Mar_12_1656,m03,
final,61,talk,The word is 'talk',0,24,24,60,space,1.65302681923,25,60.0983225559,m,glottal_pilot,2018_Mar_12_1656,m03,
final,47,chick,The word is 'chick',0,25,25,46,space,1.35206604004,25,60.0983225559,m,glottal_pilot,2018_Mar_12_1656,m03,
medial,11,kit,Say 'kit' again,0,26,26,10,space,1.48676395416,25,60.0983225559,m,glottal_pilot,2018_Mar_12_1656,m03,
medial,4,rat,Say 'rat' again,0,27,27,3,space,1.4195420742,25,60.0983225559,m,glottal_pilot,2018_Mar_12_1656,m03,
final,37,Jack,The word is 'Jack',0,28,28,36,space,1.36954188347,25,60.0983225559,m,glottal_pilot,2018_Mar_12_1656,m03,
final,60,wrought,The word is 'wrought',0,29,29,59,space,1.41903090477,25,60.0983225559,m,glottal_pilot,2018_Mar_12_1656,m03,
medial,25,sort,Say 'sort' again,0,30,30,24,space,1.401927948,25,60.0983225559,m,glottal_pilot,2018_Mar_12_1656,m03,
medial,21,luck,Say 'luck' again,0,31,31,20,space,1.43617606163,25,60.0983225559,m,glottal_pilot,2018_Mar_12_1656,m03,
final,34,fat,The word is 'fat',0,32,32,33,space,1.55296397209,25,60.0983225559,m,glottal_pilot,2018_Mar_12_1656,m03,
final,51,nut,The word is 'nut',0,33,33,50,space,1.36920690536,25,60.0983225559,m,glottal_pilot,2018_Mar_12_1656,m03,
medial,29,talk,Say 'talk' again,0,34,34,28,space,1.55230689049,25,60.0983225559,m,glottal_pilot,2018_Mar_12_1656,m03,
final,46,mick,The word is 'mick',0,35,35,45,space,1.53678703308,25,60.0983225559,m,glottal_pilot,2018_Mar_12_1656,m03,
medial,20,gut,Say 'gut' again,0,36,36,19,space,1.28426003456,25,60.0983225559,m,glottal_pilot,2018_Mar_12_1656,m03,
final,45,kick,The word is 'kick',0,37,37,44,space,1.43744397163,25,60.0983225559,m,glottal_pilot,2018_Mar_12_1656,m03,
medial,5,Jack,Say 'Jack' again,0,38,38,4,space,1.38571286201,25,60.0983225559,m,glottal_pilot,2018_Mar_12_1656,m03,
final,38,pack,The word is 'pack',0,39,39,37,space,1.10307002068,25,60.0983225559,m,glottal_pilot,2018_Mar_12_1656,m03,
final,40,tack,The word is 'tack',0,40,40,39,space,1.28519392014,25,60.0983225559,m,glottal_pilot,2018_Mar_12_1656,m03,
final,56,tuck,The word is 'tuck',0,41,41,55,space,1.11815500259,25,60.0983225559,m,glottal_pilot,2018_Mar_12_1656,m03,
medial,7,Mac,Say 'Mac' again,0,42,42,6,space,1.26880216599,25,60.0983225559,m,glottal_pilot,2018_Mar_12_1656,m03,
medial,23,muck,Say 'muck' again,0,43,43,22,space,1.18505001068,25,60.0983225559,m,glottal_pilot,2018_Mar_12_1656,m03,
final,54,duck,The word is 'duck',0,44,44,53,space,1.21961092949,25,60.0983225559,m,glottal_pilot,2018_Mar_12_1656,m03,
final,57,sort,The word is 'sort',0,45,45,56,space,2.05220508575,25,60.0983225559,m,glottal_pilot,2018_Mar_12_1656,m03,
final,41,writ,The word is 'writ',0,46,46,40,space,1.0699930191,25,60.0983225559,m,glottal_pilot,2018_Mar_12_1656,m03,
medial,3,chat,Say 'chat' again,0,47,47,2,space,1.20283198357,25,60.0983225559,m,glottal_pilot,2018_Mar_12_1656,m03,
medial,32,cork,Say 'cork' again,0,48,48,31,space,1.03668498993,25,60.0983225559,m,glottal_pilot,2018_Mar_12_1656,m03,
final,64,cork,The word is 'cork',0,49,49,63,space,1.4845559597,25,60.0983225559,m,glottal_pilot,2018_Mar_12_1656,m03,
medial,1,cat,Say 'cat' again,0,50,50,0,space,1.2195250988,25,60.0983225559,m,glottal_pilot,2018_Mar_12_1656,m03,
final,48,wick,The word is 'wick',0,51,51,47,space,2.38740706444,25,60.0983225559,m,glottal_pilot,2018_Mar_12_1656,m03,
medial,22,duck,Say 'duck' again,0,52,52,21,space,1.06991791725,25,60.0983225559,m,glottal_pilot,2018_Mar_12_1656,m03,
final,39,Mac,The word is 'Mac',0,53,53,38,space,1.01917695999,25,60.0983225559,m,glottal_pilot,2018_Mar_12_1656,m03,
medial,31,pork,Say 'pork' again,0,54,54,30,space,1.00180697441,25,60.0983225559,m,glottal_pilot,2018_Mar_12_1656,m03,
medial,15,chick,Say 'chick' again,0,55,55,14,space,1.12054800987,25,60.0983225559,m,glottal_pilot,2018_Mar_12_1656,m03,
final,53,luck,The word is 'luck',0,56,56,52,space,1.31979608536,25,60.0983225559,m,glottal_pilot,2018_Mar_12_1656,m03,
medial,30,walk,Say 'walk' again,0,57,57,29,space,1.10333800316,25,60.0983225559,m,glottal_pilot,2018_Mar_12_1656,m03,
final,63,pork,The word is 'pork',0,58,58,62,space,1.35344099998,25,60.0983225559,m,glottal_pilot,2018_Mar_12_1656,m03,
medial,9,writ,Say 'writ' again,0,59,59,8,space,1.13543105125,25,60.0983225559,m,glottal_pilot,2018_Mar_12_1656,m03,
final,59,port,The word is 'port',0,60,60,58,space,1.55354690552,25,60.0983225559,m,glottal_pilot,2018_Mar_12_1656,m03,
medial,16,wick,Say 'wick' again,0,61,61,15,space,1.08548307419,25,60.0983225559,m,glottal_pilot,2018_Mar_12_1656,m03,
medial,17,cut,Say 'cut' again,0,62,62,16,space,0.95218706131,25,60.0983225559,m,glottal_pilot,2018_Mar_12_1656,m03,
medial,13,kick,Say 'kick' again,0,63,63,12,space,1.13644981384,25,60.0983225559,m,glottal_pilot,2018_Mar_12_1656,m03,
medial,1,cat,Say 'cat' again,1,0,64,0,space,1.28590798378,25,60.0983225559,m,glottal_pilot,2018_Mar_12_1656,m03,
final,34,fat,The word is 'fat',1,1,65,33,space,1.41919112206,25,60.0983225559,m,glottal_pilot,2018_Mar_12_1656,m03,
final,51,nut,The word is 'nut',1,2,66,50,space,1.286714077,25,60.0983225559,m,glottal_pilot,2018_Mar_12_1656,m03,
medial,24,tuck,Say 'tuck' again,1,3,67,23,space,1.05269217491,25,60.0983225559,m,glottal_pilot,2018_Mar_12_1656,m03,
final,43,kit,The word is 'kit',1,4,68,42,space,1.16846299171,25,60.0983225559,m,glottal_pilot,2018_Mar_12_1656,m03,
medial,4,rat,Say 'rat' again,1,5,69,3,space,1.08487415314,25,60.0983225559,m,glottal_pilot,2018_Mar_12_1656,m03,
final,54,duck,The word is 'duck',1,6,70,53,space,1.23464488983,25,60.0983225559,m,glottal_pilot,2018_Mar_12_1656,m03,
final,55,muck,The word is 'muck',1,7,71,54,space,1.35308980942,25,60.0983225559,m,glottal_pilot,2018_Mar_12_1656,m03,
medial,14,mick,Say 'mick' again,1,8,72,13,space,0.986356019974,25,60.0983225559,m,glottal_pilot,2018_Mar_12_1656,m03,
final,38,pack,The word is 'pack',1,9,73,37,space,1.0528588295,25,60.0983225559,m,glottal_pilot,2018_Mar_12_1656,m03,
medial,12,fit,Say 'fit' again,1,10,74,11,space,0.969213008881,25,60.0983225559,m,glottal_pilot,2018_Mar_12_1656,m03,
medial,13,kick,Say 'kick' again,1,11,75,12,space,0.902586221695,25,60.0983225559,m,glottal_pilot,2018_Mar_12_1656,m03,
medial,3,chat,Say 'chat' again,1,12,76,2,space,1.00388908386,25,60.0983225559,m,glottal_pilot,2018_Mar_12_1656,m03,
final,46,mick,The word is 'mick',1,13,77,45,space,1.23580098152,25,60.0983225559,m,glottal_pilot,2018_Mar_12_1656,m03,
medial,2,fat,Say 'fat' again,1,14,78,1,space,1.06835603714,25,60.0983225559,m,glottal_pilot,2018_Mar_12_1656,m03,
final,48,wick,The word is 'wick',1,15,79,47,space,1.03475403786,25,60.0983225559,m,glottal_pilot,2018_Mar_12_1656,m03,
medial,28,wrought,Say 'wrought' again,1,16,80,27,space,1.25078487396,25,60.0983225559,m,glottal_pilot,2018_Mar_12_1656,m03,
medial,17,cut,Say 'cut' again,1,17,81,16,space,1.1524951458,25,60.0983225559,m,glottal_pilot,2018_Mar_12_1656,m03,
medial,19,nut,Say 'nut' again,1,18,82,18,space,1.18656897545,25,60.0983225559,m,glottal_pilot,2018_Mar_12_1656,m03,
final,64,cork,The word is 'cork',1,19,83,63,space,2.28617691994,25,60.0983225559,m,glottal_pilot,2018_Mar_12_1656,m03,
medial,21,luck,Say 'luck' again,1,20,84,20,space,0.952522993088,25,60.0983225559,m,glottal_pilot,2018_Mar_12_1656,m03,
medial,5,Jack,Say 'Jack' again,1,21,85,4,space,0.952461957932,25,60.0983225559,m,glottal_pilot,2018_Mar_12_1656,m03,
final,61,talk,The word is 'talk',1,22,86,60,space,1.31769704819,25,60.0983225559,m,glottal_pilot,2018_Mar_12_1656,m03,
medial,9,writ,Say 'writ' again,1,23,87,8,space,1.00239706039,25,60.0983225559,m,glottal_pilot,2018_Mar_12_1656,m03,
medial,18,shut,Say 'shut' again,1,24,88,17,space,1.00283789635,25,60.0983225559,m,glottal_pilot,2018_Mar_12_1656,m03,
medial,25,sort,Say 'sort' again,1,25,89,24,space,1.10213494301,25,60.0983225559,m,glottal_pilot,2018_Mar_12_1656,m03,
final,37,Jack,The word is 'Jack',1,26,90,36,space,1.15206599236,25,60.0983225559,m,glottal_pilot,2018_Mar_12_1656,m03,
final,33,cat,The word is 'cat',1,27,91,32,space,1.03655314445,25,60.0983225559,m,glottal_pilot,2018_Mar_12_1656,m03,
medial,31,pork,Say 'pork' again,1,28,92,30,space,1.08534383774,25,60.0983225559,m,glottal_pilot,2018_Mar_12_1656,m03,
final,59,port,The word is 'port',1,29,93,58,space,1.08530902863,25,60.0983225559,m,glottal_pilot,2018_Mar_12_1656,m03,
final,36,rat,The word is 'rat',1,30,94,35,space,1.01982617378,25,60.0983225559,m,glottal_pilot,2018_Mar_12_1656,m03,
medial,6,pack,Say 'pack' again,1,31,95,5,space,0.935877084732,25,60.0983225559,m,glottal_pilot,2018_Mar_12_1656,m03,
final,40,tack,The word is 'tack',1,32,96,39,space,1.30237007141,25,60.0983225559,m,glottal_pilot,2018_Mar_12_1656,m03,
medial,16,wick,Say 'wick' again,1,33,97,15,space,1.05105304718,25,60.0983225559,m,glottal_pilot,2018_Mar_12_1656,m03,
medial,32,cork,Say 'cork' again,1,34,98,31,space,1.1348991394,25,60.0983225559,m,glottal_pilot,2018_Mar_12_1656,m03,
medial,23,muck,Say 'muck' again,1,35,99,22,space,1.05262088776,25,60.0983225559,m,glottal_pilot,2018_Mar_12_1656,m03,
final,49,cut,The word is 'cut',1,36,100,48,space,1.0687110424,25,60.0983225559,m,glottal_pilot,2018_Mar_12_1656,m03,
final,41,writ,The word is 'writ',1,37,101,40,space,0.985156059265,25,60.0983225559,m,glottal_pilot,2018_Mar_12_1656,m03,
final,50,shut,The word is 'shut',1,38,102,49,space,0.953374862671,25,60.0983225559,m,glottal_pilot,2018_Mar_12_1656,m03,
final,42,lit,The word is 'lit',1,39,103,41,space,1.00296211243,25,60.0983225559,m,glottal_pilot,2018_Mar_12_1656,m03,
final,57,sort,The word is 'sort',1,40,104,56,space,1.18500685692,25,60.0983225559,m,glottal_pilot,2018_Mar_12_1656,m03,
medial,20,gut,Say 'gut' again,1,41,105,19,space,0.98625087738,25,60.0983225559,m,glottal_pilot,2018_Mar_12_1656,m03,
medial,26,short,Say 'short' again,1,42,106,25,space,1.0351369381,25,60.0983225559,m,glottal_pilot,2018_Mar_12_1656,m03,
final,60,wrought,The word is 'wrought',1,43,107,59,space,1.18562912941,25,60.0983225559,m,glottal_pilot,2018_Mar_12_1656,m03,
medial,11,kit,Say 'kit' again,1,44,108,10,space,1.13679099083,25,60.0983225559,m,glottal_pilot,2018_Mar_12_1656,m03,
final,52,gut,The word is 'gut',1,45,109,51,space,0.918051958084,25,60.0983225559,m,glottal_pilot,2018_Mar_12_1656,m03,
final,39,Mac,The word is 'Mac',1,46,110,38,space,1.00178313255,25,60.0983225559,m,glottal_pilot,2018_Mar_12_1656,m03,
final,53,luck,The word is 'luck',1,47,111,52,space,0.953649044037,25,60.0983225559,m,glottal_pilot,2018_Mar_12_1656,m03,
final,58,short,The word is 'short',1,48,112,57,space,0.952502012253,25,60.0983225559,m,glottal_pilot,2018_Mar_12_1656,m03,
medial,10,lit,Say 'lit' again,1,49,113,9,space,1.10325598717,25,60.0983225559,m,glottal_pilot,2018_Mar_12_1656,m03,
medial,7,Mac,Say 'Mac' again,1,50,114,6,space,0.800981044769,25,60.0983225559,m,glottal_pilot,2018_Mar_12_1656,m03,
medial,30,walk,Say 'walk' again,1,51,115,29,space,1.0357170105,25,60.0983225559,m,glottal_pilot,2018_Mar_12_1656,m03,
final,63,pork,The word is 'pork',1,52,116,62,space,1.18655180931,25,60.0983225559,m,glottal_pilot,2018_Mar_12_1656,m03,
medial,8,tack,Say 'tack' again,1,53,117,7,space,1.21982693672,25,60.0983225559,m,glottal_pilot,2018_Mar_12_1656,m03,
medial,15,chick,Say 'chick' again,1,54,118,14,space,0.818428993225,25,60.0983225559,m,glottal_pilot,2018_Mar_12_1656,m03,
final,45,kick,The word is 'kick',1,55,119,44,space,0.935217142105,25,60.0983225559,m,glottal_pilot,2018_Mar_12_1656,m03,
final,44,fit,The word is 'fit',1,56,120,43,space,1.11998391151,25,60.0983225559,m,glottal_pilot,2018_Mar_12_1656,m03,
final,62,walk,The word is 'walk',1,57,121,61,space,1.18720412254,25,60.0983225559,m,glottal_pilot,2018_Mar_12_1656,m03,
medial,27,port,Say 'port' again,1,58,122,26,space,1.08566498756,25,60.0983225559,m,glottal_pilot,2018_Mar_12_1656,m03,
final,56,tuck,The word is 'tuck',1,59,123,55,space,1.13540387154,25,60.0983225559,m,glottal_pilot,2018_Mar_12_1656,m03,
final,35,chat,The word is 'chat',1,60,124,34,space,0.852787017822,25,60.0983225559,m,glottal_pilot,2018_Mar_12_1656,m03,
medial,29,talk,Say 'talk' again,1,61,125,28,space,0.936274051666,25,60.0983225559,m,glottal_pilot,2018_Mar_12_1656,m03,
medial,22,duck,Say 'duck' again,1,62,126,21,space,1.20273303986,25,60.0983225559,m,glottal_pilot,2018_Mar_12_1656,m03,
final,47,chick,The word is 'chick',1,63,127,46,space,1.00236797333,25,60.0983225559,m,glottal_pilot,2018_Mar_12_1656,m03,
final,34,fat,The word is 'fat',2,0,128,33,space,1.03500294685,25,60.0983225559,m,glottal_pilot,2018_Mar_12_1656,m03,
medial,31,pork,Say 'pork' again,2,1,129,30,space,0.786831140518,25,60.0983225559,m,glottal_pilot,2018_Mar_12_1656,m03,
final,45,kick,The word is 'kick',2,2,130,44,space,0.835875988007,25,60.0983225559,m,glottal_pilot,2018_Mar_12_1656,m03,
final,44,fit,The word is 'fit',2,3,131,43,space,1.06875705719,25,60.0983225559,m,glottal_pilot,2018_Mar_12_1656,m03,
medial,3,chat,Say 'chat' again,2,4,132,2,space,0.952607870102,25,60.0983225559,m,glottal_pilot,2018_Mar_12_1656,m03,
medial,30,walk,Say 'walk' again,2,5,133,29,space,1.05275988579,25,60.0983225559,m,glottal_pilot,2018_Mar_12_1656,m03,
final,40,tack,The word is 'tack',2,6,134,39,space,0.86754989624,25,60.0983225559,m,glottal_pilot,2018_Mar_12_1656,m03,
medial,6,pack,Say 'pack' again,2,7,135,5,space,0.835489034653,25,60.0983225559,m,glottal_pilot,2018_Mar_12_1656,m03,
medial,1,cat,Say 'cat' again,2,8,136,0,space,0.919610023499,25,60.0983225559,m,glottal_pilot,2018_Mar_12_1656,m03,
final,38,pack,The word is 'pack',2,9,137,37,space,0.985422849655,25,60.0983225559,m,glottal_pilot,2018_Mar_12_1656,m03,
medial,8,tack,Say 'tack' again,2,10,138,7,space,0.91814494133,25,60.0983225559,m,glottal_pilot,2018_Mar_12_1656,m03,
medial,9,writ,Say 'writ' again,2,11,139,8,space,0.868266105652,25,60.0983225559,m,glottal_pilot,2018_Mar_12_1656,m03,
medial,13,kick,Say 'kick' again,2,12,140,12,space,0.752744913101,25,60.0983225559,m,glottal_pilot,2018_Mar_12_1656,m03,
final,59,port,The word is 'port',2,13,141,58,space,1.03556084633,25,60.0983225559,m,glottal_pilot,2018_Mar_12_1656,m03,
final,41,writ,The word is 'writ',2,14,142,40,space,1.00283288956,25,60.0983225559,m,glottal_pilot,2018_Mar_12_1656,m03,
final,50,shut,The word is 'shut',2,15,143,49,space,0.869025230408,25,60.0983225559,m,glottal_pilot,2018_Mar_12_1656,m03,
final,61,talk,The word is 'talk',2,16,144,60,space,0.91908788681,25,60.0983225559,m,glottal_pilot,2018_Mar_12_1656,m03,
final,56,tuck,The word is 'tuck',2,17,145,55,space,0.969530105591,25,60.0983225559,m,glottal_pilot,2018_Mar_12_1656,m03,
final,53,luck,The word is 'luck',2,18,146,52,space,0.685487985611,25,60.0983225559,m,glottal_pilot,2018_Mar_12_1656,m03,
medial,21,luck,Say 'luck' again,2,19,147,20,space,1.38601899147,25,60.0983225559,m,glottal_pilot,2018_Mar_12_1656,m03,
medial,15,chick,Say 'chick' again,2,20,148,14,space,0.866739988327,25,60.0983225559,m,glottal_pilot,2018_Mar_12_1656,m03,
medial,32,cork,Say 'cork' again,2,21,149,31,space,0.785351037979,25,60.0983225559,m,glottal_pilot,2018_Mar_12_1656,m03,
final,35,chat,The word is 'chat',2,22,150,34,space,0.969325065613,25,60.0983225559,m,glottal_pilot,2018_Mar_12_1656,m03,
medial,25,sort,Say 'sort' again,2,23,151,24,space,1.08386898041,25,60.0983225559,m,glottal_pilot,2018_Mar_12_1656,m03,
final,57,sort,The word is 'sort',2,24,152,56,space,1.11979413033,25,60.0983225559,m,glottal_pilot,2018_Mar_12_1656,m03,
medial,29,talk,Say 'talk' again,2,25,153,28,space,0.88556599617,25,60.0983225559,m,glottal_pilot,2018_Mar_12_1656,m03,
final,62,walk,The word is 'walk',2,26,154,61,space,1.05297708511,25,60.0983225559,m,glottal_pilot,2018_Mar_12_1656,m03,
medial,5,Jack,Say 'Jack' again,2,27,155,4,space,0.736132860184,25,60.0983225559,m,glottal_pilot,2018_Mar_12_1656,m03,
final,63,pork,The word is 'pork',2,28,156,62,space,0.935091018677,25,60.0983225559,m,glottal_pilot,2018_Mar_12_1656,m03,
final,43,kit,The word is 'kit',2,29,157,42,space,0.702665090561,25,60.0983225559,m,glottal_pilot,2018_Mar_12_1656,m03,
medial,23,muck,Say 'muck' again,2,30,158,22,space,0.867969036102,25,60.0983225559,m,glottal_pilot,2018_Mar_12_1656,m03,
final,54,duck,The word is 'duck',2,31,159,53,space,0.836401939392,25,60.0983225559,m,glottal_pilot,2018_Mar_12_1656,m03,
final,33,cat,The word is 'cat',2,32,160,32,space,0.819238901138,25,60.0983225559,m,glottal_pilot,2018_Mar_12_1656,m03,
medial,19,nut,Say 'nut' again,2,33,161,18,space,0.935558795929,25,60.0983225559,m,glottal_pilot,2018_Mar_12_1656,m03,
final,46,mick,The word is 'mick',2,34,162,45,space,0.80240893364,25,60.0983225559,m,glottal_pilot,2018_Mar_12_1656,m03,
medial,2,fat,Say 'fat' again,2,35,163,1,space,0.920246124268,25,60.0983225559,m,glottal_pilot,2018_Mar_12_1656,m03,
final,39,Mac,The word is 'Mac',2,36,164,38,space,0.785718917847,25,60.0983225559,m,glottal_pilot,2018_Mar_12_1656,m03,
medial,4,rat,Say 'rat' again,2,37,165,3,space,0.837004899979,25,60.0983225559,m,glottal_pilot,2018_Mar_12_1656,m03,
final,58,short,The word is 'short',2,38,166,57,space,1.18533205986,25,60.0983225559,m,glottal_pilot,2018_Mar_12_1656,m03,
medial,27,port,Say 'port' again,2,39,167,26,space,0.86795592308,25,60.0983225559,m,glottal_pilot,2018_Mar_12_1656,m03,
final,52,gut,The word is 'gut',2,40,168,51,space,0.885486125946,25,60.0983225559,m,glottal_pilot,2018_Mar_12_1656,m03,
medial,14,mick,Say 'mick' again,2,41,169,13,space,0.835494041443,25,60.0983225559,m,glottal_pilot,2018_Mar_12_1656,m03,
final,64,cork,The word is 'cork',2,42,170,63,space,1.01860594749,25,60.0983225559,m,glottal_pilot,2018_Mar_12_1656,m03,
medial,16,wick,Say 'wick' again,2,43,171,15,space,0.852750062943,25,60.0983225559,m,glottal_pilot,2018_Mar_12_1656,m03,
medial,28,wrought,Say 'wrought' again,2,44,172,27,space,0.969580173492,25,60.0983225559,m,glottal_pilot,2018_Mar_12_1656,m03,
final,42,lit,The word is 'lit',2,45,173,41,space,0.902647018433,25,60.0983225559,m,glottal_pilot,2018_Mar_12_1656,m03,
medial,12,fit,Say 'fit' again,2,46,174,11,space,0.985635995865,25,60.0983225559,m,glottal_pilot,2018_Mar_12_1656,m03,
final,60,wrought,The word is 'wrought',2,47,175,59,space,1.32045388222,25,60.0983225559,m,glottal_pilot,2018_Mar_12_1656,m03,
final,51,nut,The word is 'nut',2,48,176,50,space,0.902582883835,25,60.0983225559,m,glottal_pilot,2018_Mar_12_1656,m03,
final,49,cut,The word is 'cut',2,49,177,48,space,1.06909704208,25,60.0983225559,m,glottal_pilot,2018_Mar_12_1656,m03,
final,55,muck,The word is 'muck',2,50,178,54,space,1.08548808098,25,60.0983225559,m,glottal_pilot,2018_Mar_12_1656,m03,
medial,17,cut,Say 'cut' again,2,51,179,16,space,0.85165810585,25,60.0983225559,m,glottal_pilot,2018_Mar_12_1656,m03,
final,47,chick,The word is 'chick',2,52,180,46,space,0.835785150528,25,60.0983225559,m,glottal_pilot,2018_Mar_12_1656,m03,
final,36,rat,The word is 'rat',2,53,181,35,space,0.870769023895,25,60.0983225559,m,glottal_pilot,2018_Mar_12_1656,m03,
final,37,Jack,The word is 'Jack',2,54,182,36,space,0.835501909256,25,60.0983225559,m,glottal_pilot,2018_Mar_12_1656,m03,
medial,22,duck,Say 'duck' again,2,55,183,21,space,0.785519123077,25,60.0983225559,m,glottal_pilot,2018_Mar_12_1656,m03,
medial,20,gut,Say 'gut' again,2,56,184,19,space,0.769156932831,25,60.0983225559,m,glottal_pilot,2018_Mar_12_1656,m03,
medial,24,tuck,Say 'tuck' again,2,57,185,23,space,0.769402980804,25,60.0983225559,m,glottal_pilot,2018_Mar_12_1656,m03,
medial,18,shut,Say 'shut' again,2,58,186,17,space,0.819911003113,25,60.0983225559,m,glottal_pilot,2018_Mar_12_1656,m03,
final,48,wick,The word is 'wick',2,59,187,47,space,0.985645055771,25,60.0983225559,m,glottal_pilot,2018_Mar_12_1656,m03,
medial,7,Mac,Say 'Mac' again,2,60,188,6,space,0.919636964798,25,60.0983225559,m,glottal_pilot,2018_Mar_12_1656,m03,
medial,10,lit,Say 'lit' again,2,61,189,9,space,1.03616595268,25,60.0983225559,m,glottal_pilot,2018_Mar_12_1656,m03,
medial,26,short,Say 'short' again,2,62,190,25,space,1.16930198669,25,60.0983225559,m,glottal_pilot,2018_Mar_12_1656,m03,
medial,11,kit,Say 'kit' again,2,63,191,10,space,0.968778848648,25,60.0983225559,m,glottal_pilot,2018_Mar_12_1656,m03,
